Data from Blank_AbsoluteIrradiance__0__17-24-16-809.txt Node

Date: Fri Feb 12 17:24:16 CST 2021
User: TalapinLab_Dell#2
Spectrometer: QEP00140
Trigger mode: 4
Integration Time (sec): 5.000000E-1
Scans to average: 10
Electric dark correction enabled: true
Nonlinearity correction enabled: false
Boxcar width: 0
XAxis mode: Wavelengths
Number of Pixels in Spectrum: 1044
>>>>>Begin Spectral Data<<<<<
348.047	-0
348.444	-0
348.841	-0
349.237	-0
349.634	0
350.03	0
350.427	0.05
350.823	0.06
351.219	0.02
351.616	0.04
352.012	0.01
352.408	0.03
352.804	0.05
353.201	0.03
353.597	0.03
353.993	0.04
354.389	-0.04
354.785	0.02
355.181	0.01
355.577	0.01
355.973	0.03
356.368	-0.02
356.764	0.05
357.16	0.04
357.556	0.04
357.951	0.05
358.347	0.02
358.743	0.03
359.138	0.01
359.534	0
359.929	0.01
360.324	0.04
360.72	0.04
361.115	0.06
361.51	0.03
361.906	0.02
362.301	0.02
362.696	0.04
363.091	0.06
363.486	0.05
363.881	0.06
364.276	0.07
364.671	0.05
365.066	0.05
365.461	0.07
365.856	0.02
366.251	0.02
366.646	0.04
367.04	0.02
367.435	0.04
367.83	0.03
368.224	0.02
368.619	0.05
369.013	0.03
369.408	0.02
369.802	0.03
370.197	0.03
370.591	0.05
370.985	0.04
371.38	0.02
371.774	0.04
372.168	0.04
372.562	0.02
372.956	0.03
373.35	0.04
373.744	0.03
374.138	0.05
374.532	0.04
374.926	0.05
375.32	0.04
375.714	0.01
376.108	0.07
376.501	0.05
376.895	0.06
377.289	0.04
377.682	0.05
378.076	0.05
378.469	0.05
378.863	0.06
379.256	0.07
379.65	0.07
380.043	0.07
380.436	0.07
380.83	0.05
381.223	0.08
381.616	0.07
382.009	0.1
382.402	0.09
382.795	0.1
383.188	0.11
383.581	0.12
383.974	0.11
384.367	0.15
384.76	0.13
385.153	0.16
385.546	0.17
385.938	0.18
386.331	0.18
386.724	0.2
387.116	0.23
387.509	0.22
387.902	0.25
388.294	0.26
388.686	0.28
389.079	0.3
389.471	0.33
389.864	0.35
390.256	0.36
390.648	0.4
391.04	0.42
391.432	0.45
391.825	0.49
392.217	0.51
392.609	0.55
393.001	0.6
393.393	0.62
393.785	0.67
394.176	0.72
394.568	0.79
394.96	0.89
395.352	1.04
395.743	1.19
396.135	1.33
396.527	1.41
396.918	1.53
397.31	1.66
397.701	1.88
398.093	2.16
398.484	2.41
398.875	2.72
399.267	3.11
399.658	3.59
400.049	4.05
400.441	4.58
400.832	5.01
401.223	5.57
401.614	6.25
402.005	7.2
402.396	8.64
402.787	11.49
403.178	20.63
403.569	60.5
403.959	177.4
404.35	328.55
404.741	515.67
405.132	417.8
405.522	80.24
405.913	14.88
406.303	6.49
406.694	4.3
407.084	3.31
407.475	2.53
407.865	2.02
408.256	1.7
408.646	1.48
409.036	1.31
409.426	1.15
409.817	1.06
410.207	0.95
410.597	0.88
410.987	0.82
411.377	0.75
411.767	0.7
412.157	0.66
412.547	0.62
412.937	0.56
413.326	0.52
413.716	0.5
414.106	0.46
414.496	0.43
414.885	0.41
415.275	0.37
415.664	0.36
416.054	0.34
416.443	0.32
416.833	0.29
417.222	0.27
417.612	0.26
418.001	0.25
418.39	0.23
418.779	0.23
419.169	0.21
419.558	0.22
419.947	0.19
420.336	0.19
420.725	0.17
421.114	0.15
421.503	0.17
421.892	0.16
422.28	0.15
422.669	0.14
423.058	0.14
423.447	0.12
423.835	0.12
424.224	0.12
424.613	0.1
425.001	0.1
425.39	0.1
425.778	0.1
426.167	0.1
426.555	0.09
426.943	0.08
427.332	0.08
427.72	0.09
428.108	0.08
428.496	0.08
428.884	0.08
429.272	0.07
429.66	0.08
430.048	0.07
430.436	0.07
430.824	0.06
431.212	0.07
431.6	0.07
431.988	0.05
432.376	0.06
432.763	0.05
433.151	0.05
433.538	0.04
433.926	0.05
434.314	0.05
434.701	0.05
435.089	0.05
435.476	0.05
435.863	0.05
436.251	0.04
436.638	0.04
437.025	0.04
437.412	0.05
437.799	0.04
438.187	0.05
438.574	0.04
438.961	0.04
439.348	0.05
439.735	0.04
440.121	0.03
440.508	0.03
440.895	0.03
441.282	0.03
441.669	0.03
442.055	0.04
442.442	0.03
442.828	0.03
443.215	0.02
443.601	0.04
443.988	0.04
444.374	0.03
444.761	0.02
445.147	0.03
445.533	0.03
445.92	0.02
446.306	0.02
446.692	0.03
447.078	0.03
447.464	0.03
447.85	0.03
448.236	0.03
448.622	0.03
449.008	0.04
449.394	0.03
449.78	0.03
450.166	0.02
450.551	0.02
450.937	0.02
451.323	0.03
451.708	0.02
452.094	0.03
452.479	0.02
452.865	0.02
453.25	0.03
453.636	0.02
454.021	0.02
454.406	0.02
454.792	0.03
455.177	0.03
455.562	0.02
455.947	0.02
456.332	0.02
456.717	0.03
457.102	0.03
457.487	0.03
457.872	0.03
458.257	0.03
458.642	0.02
459.027	0.02
459.411	0.02
459.796	0.02
460.181	0.02
460.565	0.02
460.95	0.02
461.334	0.03
461.719	0.02
462.103	0.02
462.488	0.02
462.872	0.02
463.257	0.03
463.641	0.02
464.025	0.03
464.409	0.02
464.793	0.02
465.177	0.02
465.562	0.02
465.946	0.01
466.33	0.02
466.713	0.02
467.097	0.02
467.481	0.02
467.865	0.02
468.249	0.02
468.632	0.02
469.016	0.02
469.4	0.02
469.783	0.02
470.167	0.02
470.55	0.03
470.934	0.03
471.317	0.03
471.701	0.01
472.084	0.02
472.467	0.02
472.85	0.02
473.234	0.01
473.617	0.02
474	0.02
474.383	0.01
474.766	0.02
475.149	0.02
475.532	0.02
475.915	0.02
476.298	0.02
476.68	0.02
477.063	0.02
477.446	0.02
477.829	0.03
478.211	0.02
478.594	0.02
478.976	0.02
479.359	0.01
479.741	0.01
480.124	0.02
480.506	0.02
480.888	0.01
481.271	0.01
481.653	0.02
482.035	0.01
482.417	0.02
482.799	0.02
483.182	0.02
483.564	0.01
483.946	0.02
484.327	0.02
484.709	0.02
485.091	0.01
485.473	0.01
485.855	0.01
486.237	0.02
486.618	0.02
487	0.01
487.381	0.01
487.763	0.01
488.144	0.02
488.526	0.02
488.907	0.01
489.289	0.02
489.67	0.02
490.051	0.01
490.433	0.01
490.814	0.02
491.195	0.02
491.576	0.02
491.957	0.02
492.338	0.01
492.719	0.02
493.1	0.01
493.481	0.01
493.862	0.01
494.243	0.02
494.623	0.02
495.004	0.02
495.385	0.02
495.765	0.01
496.146	0.02
496.527	0.02
496.907	0.02
497.287	0.01
497.668	0.01
498.048	0.02
498.429	0.02
498.809	0.01
499.189	0.02
499.569	0.02
499.949	0.01
500.33	0.02
500.71	0.01
501.09	0.02
501.47	0.02
501.85	0.01
502.229	0.01
502.609	0.01
502.989	0.02
503.369	0.01
503.748	0.01
504.128	0.01
504.508	0.01
504.887	0.02
505.267	0.02
505.646	0.01
506.026	0.02
506.405	0.01
506.785	0.01
507.164	0.01
507.543	0.01
507.922	0.02
508.302	0.01
508.681	0.02
509.06	0.01
509.439	0.01
509.818	0.01
510.197	0.01
510.576	0.01
510.955	0.01
511.333	0.01
511.712	0.01
512.091	0.02
512.47	0.01
512.848	0.01
513.227	0.01
513.606	0.01
513.984	0.01
514.363	0.01
514.741	0.01
515.119	0.01
515.498	0.01
515.876	0.02
516.254	0.01
516.632	0.01
517.011	0.02
517.389	0.01
517.767	0.01
518.145	0.01
518.523	0.01
518.901	0.01
519.279	0.01
519.657	0.01
520.034	0.01
520.412	0.01
520.79	0.01
521.168	0.01
521.545	0.01
521.923	0.01
522.3	0.01
522.678	0.01
523.055	0.01
523.433	0.01
523.81	0.01
524.187	0.02
524.565	0.01
524.942	0.01
525.319	0.02
525.696	0.01
526.073	0.01
526.451	0.01
526.828	0.01
527.205	0.01
527.581	0.01
527.958	0.01
528.335	0.01
528.712	0.01
529.089	0.01
529.465	0.01
529.842	0.01
530.219	0.01
530.595	0.01
530.972	0.01
531.348	0.01
531.725	0.01
532.101	0.01
532.477	0.01
532.854	0
533.23	0.01
533.606	0.01
533.982	0.01
534.359	0.01
534.735	0.01
535.111	0.01
535.487	0.01
535.863	0.01
536.239	0.01
536.614	0.01
536.99	0.01
537.366	0.01
537.742	0.01
538.117	0.01
538.493	0.01
538.869	0.01
539.244	0
539.62	0.01
539.995	0
540.371	0.01
540.746	0.01
541.121	0
541.497	0.01
541.872	0.01
542.247	0.01
542.622	0.01
542.997	0.01
543.372	0.01
543.747	0.01
544.122	0.01
544.497	0.01
544.872	0.01
545.247	0.01
545.622	0.01
545.996	0.01
546.371	0.01
546.746	0
547.12	0.01
547.495	0.01
547.87	0
548.244	0.01
548.618	0
548.993	0.01
549.367	0.01
549.741	0
550.116	0.01
550.49	0.01
550.864	0.01
551.238	0.01
551.612	0.01
551.986	0
552.36	0.01
552.734	0
553.108	0.01
553.482	0.01
553.856	0.01
554.23	0.01
554.603	0.01
554.977	0.01
555.351	0.01
555.724	0.01
556.098	0.01
556.471	0.01
556.845	0.01
557.218	0.01
557.591	0.01
557.965	0.01
558.338	0
558.711	0
559.084	0
559.458	0.01
559.831	0
560.204	0.01
560.577	0
560.95	0
561.322	0.01
561.695	0
562.068	0.01
562.441	0.01
562.814	0.01
563.186	0
563.559	0
563.932	0
564.304	0
564.677	0
565.049	0
565.421	0.01
565.794	0.01
566.166	0
566.538	0.01
566.911	0
567.283	0.01
567.655	0
568.027	0.01
568.399	0
568.771	0
569.143	0
569.515	0
569.887	0
570.259	0
570.63	0.01
571.002	0.01
571.374	0.01
571.746	0.01
572.117	0.01
572.489	0.01
572.86	0.01
573.232	0.01
573.603	0
573.974	0.01
574.346	0
574.717	0
575.088	0.01
575.459	0
575.831	0
576.202	0
576.573	0
576.944	-0
577.315	0
577.686	0
578.056	-0
578.427	0
578.798	0.01
579.169	0.01
579.54	0
579.91	0.01
580.281	0.01
580.651	0.01
581.022	0
581.392	0.01
581.763	0
582.133	0
582.503	-0
582.874	0
583.244	0
583.614	0
583.984	0.01
584.354	0.01
584.724	0.01
585.094	0
585.464	0.01
585.834	-0
586.204	0
586.574	0
586.944	0.01
587.313	-0
587.683	0.01
588.053	0
588.422	0
588.792	0
589.161	0.01
589.531	0
589.9	0.01
590.27	0
590.639	0
591.008	-0
591.377	0
591.747	-0
592.116	0.01
592.485	0
592.854	0.01
593.223	0
593.592	0
593.961	0
594.33	0
594.699	0
595.067	0
595.436	0
595.805	0
596.173	0.01
596.542	0
596.91	-0
597.279	0.01
597.647	0
598.016	0.01
598.384	0.01
598.752	0
599.121	0.01
599.489	0
599.857	0.01
600.225	0.01
600.593	0
600.961	0
601.329	0.01
601.697	0
602.065	-0
602.433	0
602.801	0.01
603.169	0.01
603.536	0
603.904	0
604.272	-0
604.639	0
605.007	0
605.374	0
605.742	0
606.109	-0
606.477	0.01
606.844	-0
607.211	0.01
607.578	0
607.945	0
608.313	0
608.68	0
609.047	0.01
609.414	-0
609.781	0
610.147	0
610.514	0
610.881	0
611.248	-0
611.615	0.01
611.981	-0
612.348	0
612.714	0
613.081	0.01
613.447	0
613.814	-0
614.18	0
614.547	0
614.913	-0
615.279	0
615.645	0
616.011	0
616.378	0
616.744	0
617.11	0
617.476	0
617.842	-0
618.207	-0
618.573	0
618.939	0
619.305	0.01
619.67	0.01
620.036	0
620.402	0
620.767	0
621.133	-0
621.498	0
621.864	-0
622.229	0.01
622.594	0
622.96	-0
623.325	0
623.69	0
624.055	0
624.42	0
624.785	0.01
625.15	0
625.515	0.01
625.88	0
626.245	0.01
626.61	-0
626.974	-0
627.339	0
627.704	0
628.069	0
628.433	0
628.798	-0
629.162	0.01
629.527	0.01
629.891	0
630.255	0
630.62	0.01
630.984	0
631.348	-0
631.712	-0
632.076	0
632.44	0.01
632.804	0
633.168	0.01
633.532	-0
633.896	0.01
634.26	0
634.624	-0
634.988	0.01
635.351	-0
635.715	0
636.078	0
636.442	0
636.806	0
637.169	-0
637.532	-0
637.896	0.01
638.259	0
638.622	0
638.986	-0
639.349	-0
639.712	-0
640.075	0
640.438	0
640.801	0.01
641.164	0
641.527	0
641.89	-0
642.253	0.01
642.615	0
642.978	0.01
643.341	0.01
643.703	0.01
644.066	0
644.428	0.01
644.791	-0
645.153	0
645.516	0
645.878	0
646.24	0
646.603	0
646.965	0
647.327	0
647.689	0
648.051	0
648.413	0
648.775	0.01
649.137	0
649.499	0
649.861	0
650.222	0.01
650.584	-0
650.946	0.01
651.307	0
651.669	0
652.031	0
652.392	0.01
652.753	0
653.115	0.01
653.476	-0
653.838	0.01
654.199	0
654.56	-0
654.921	0
655.282	0.01
655.643	0
656.004	0.01
656.365	0
656.726	0
657.087	0
657.448	-0
657.809	0
658.17	-0
658.53	-0
658.891	0
659.251	0
659.612	0
659.973	0
660.333	0
660.693	-0
661.054	0
661.414	0.01
661.774	0
662.135	0.01
662.495	0
662.855	0
663.215	-0
663.575	0
663.935	0.01
664.295	0
664.655	0
665.015	-0
665.374	0
665.734	0
666.094	-0
666.454	0
666.813	0.01
667.173	-0
667.532	0.01
667.892	0
668.251	0.01
668.611	0.01
668.97	0
669.329	0
669.688	0.01
670.048	0
670.407	0
670.766	0
671.125	0.01
671.484	0
671.843	0
672.202	0
672.561	0
672.919	-0.01
673.278	0
673.637	0
673.995	0
674.354	0
674.713	0.01
675.071	0
675.43	-0
675.788	-0
676.146	0
676.505	0.01
676.863	0
677.221	0
677.579	0.01
677.938	0.01
678.296	0.01
678.654	0.01
679.012	0
679.37	0
679.728	0
680.085	0.01
680.443	0.01
680.801	0.01
681.159	0
681.516	0
681.874	0
682.232	0
682.589	0
682.947	0
683.304	0
683.661	0
684.019	0
684.376	0
684.733	0
685.09	0
685.448	0
685.805	0
686.162	0.01
686.519	0.01
686.876	0
687.233	0
687.589	0
687.946	0
688.303	0
688.66	0
689.016	0
689.373	0
689.729	0
690.086	0
690.442	0
690.799	0
691.155	-0
691.512	0.01
691.868	0
692.224	0
692.58	0
692.936	0
693.293	0
693.649	0
694.005	0
694.361	-0
694.716	0
695.072	0
695.428	0.01
695.784	0
696.14	0.01
696.495	0
696.851	0.01
697.206	0.01
697.562	0
697.917	-0
698.273	0
698.628	0.01
698.983	-0
699.339	0.01
699.694	0.01
700.049	0.01
700.404	0.01
700.759	0.01
701.114	0.01
701.469	0
701.824	0.01
702.179	0.01
702.534	0.01
702.889	0.02
703.244	0.02
703.598	0.02
703.953	0.02
704.308	0.02
704.662	0.02
705.017	0.02
705.371	0.02
705.725	0.02
706.08	0.02
706.434	0.03
706.788	0.02
707.143	0.02
707.497	0.03
707.851	0.02
708.205	0.02
708.559	0.03
708.913	0.02
709.267	0.02
709.621	0.02
709.975	0.02
710.328	0.02
710.682	0.02
711.036	0.01
711.389	0.01
711.743	0.01
712.097	0.01
712.45	0.01
712.804	0.01
713.157	0.02
713.51	0.01
713.864	0.01
714.217	-0
714.57	0.01
714.923	0
715.276	0
715.629	0
715.982	0
716.335	0
716.688	-0
717.041	0
717.394	0
717.747	0.01
718.099	0
718.452	0
718.805	-0
719.157	0.01
719.51	0
719.862	0
720.215	0.01
720.567	-0
720.919	-0
721.272	0.01
721.624	0
721.976	0.01
722.328	0
722.68	0.01
723.032	0
723.384	0
723.736	0
724.088	-0
724.44	0.01
724.792	0
725.144	-0
725.495	0
725.847	-0
726.199	0
726.55	0
726.902	0
727.253	0.01
727.605	0
727.956	0.01
728.307	0
728.659	0
729.01	-0
729.361	0
729.712	0
730.063	-0
730.414	0.01
730.765	0
731.116	0
731.467	0
731.818	0
732.169	-0
732.519	0.01
732.87	-0
733.221	0.01
733.571	0
733.922	-0
734.272	-0
734.623	0
734.973	0
735.323	0.01
735.674	-0.01
736.024	0.01
736.374	-0
736.724	0
737.074	0
737.424	0
737.774	-0
738.124	-0
